Folder: relozwall/data_processing/2024/manuscript3/data/EDX/20241122/hp_b_rod/Base(3).MAP.EDS

Note: README.md
# relozwall
Code for data acquisition and control for low-Z renewable wall with integrated tritum recovery

File: Extracted Spectrum.emsa
#FORMAT      : EMSA/MAS Spectral Data File
#VERSION     : 1.0
#TITLE       : Extracted Spectrum
#DATE        : 22-NOV-2024
#TIME        : 16:18: 0
#OWNER       :
#NPOINTS     : 1024
#NCOLUMNS    : 1
#XUNITS      : keV
#YUNITS      : Intensity
#DATATYPE    : XY
#XPERCHAN    : 0.01
#OFFSET      : 0.000000000
#CHOFFSET    : 0.000000
#SIGNALTYPE  : EDS
#XLABEL      : X-Ray Energy
#YLABEL      : X-Ray Intensity
#BEAMKV   -kV: 7.0
#EMISSION -uA: 0.0000
#PROBECUR -nA: 0.8000
#BEAMDIAM -nm: 0.0
#MAGCAM      : 600.0
#OPERMODE    : IMAG
#XTILTSTGE-dg: 0.000
#YTILTSTGE-dg: 0.000
#XPOSITION   : 0.000
#YPOSITION   : 0.000
#ZPOSITION   : 0.000
#ELEVANGLE-dg: 47.92
#AZIMANGLE-dg: 0.00
#SOLIDANGL-sR: 0.0053
#LIVETIME  -s: 47.211
#REALTIME  -s: 53.760
#THCWIND  -cm: 3.00E-05
#TAUWIND  -cm: 2.00E-06
#TDEADLYR -cm: 1.00E-06
#EDSDET      : SIUTW
#COMMENT     : The following parameters are defined by Thermo Fisher Scientific
##INSTRUMENT : NSS
##DETNAME    : UltraDry
##CONTAM     : 0.00E+00
##CONTAMTYPE : NONE
##WORKDIST   : 21.68
##STAGEROT   : 0.000
##SLIDEPOS   : 35.000
##CRYSTMATL  : Si-Drift
##CRYSTAREA  : 10.000
##CRYSTTHICK : 0.450
##WINTYPE    : NORVAR
##CONTMATL   : SDD_LELMT
##WINDCOAT   : ALUMINUM
##WINDTHICK  : 0.030
##DEADTIME   : 6.549
##TIMECNSTNT : 6400
##EDSBOARDREV: 2
##ZEROWIDTH  : 20.600
##DETECTS    : 0
##CONVERTS   : 0
##STORES     : 0
##ESCPKSREM  : 0
##ZEROPKSREM : 0
##SUMPKSREM  : 0
##ZEROCUTOFF : 0.000
##DETSUBTYPE : 3
##EXPONENT   : 0.000
##LOWEVADJ   : 0.000
##BEAMX      : -1.000
##BEAMY      : -1.000
##CHARGE     : 0.00E+00
##QUANT_DATE : (null)
##QUANT_CHI  : 0.000
##FITTYPE    : 0
##MATRIXCORR : 0
#SPECTRUM    :
0.0000,     0.0,
0.0400,     0.0,
0.0800,     0.0,
0.1200,  1062.0,
0.1600, 35667.0,
0.2000, 24696.0,
0.2400,  1040.0,
0.2800,  3372.0,
0.3200,   210.0,
0.3600,   329.0,
0.4000,   255.0,
0.4400,   309.0,
0.4800,   437.0,
0.5200,   912.0,
0.5600,   352.0,
0.6000,   321.0,
0.6400,   418.0,
0.6800,   410.0,
0.7200,   443.0,
0.7600,   483.0,
0.8000,   490.0,
0.8400,   476.0,
0.8800,   512.0,
0.9200,   485.0,
0.9600,   544.0,
1.0000,   494.0,
1.0400,   480.0,
1.0800,   516.0,
1.1200,   466.0,
1.1600,   483.0,
1.2000,   399.0,
1.2400,   462.0,
1.2800,   423.0,
1.3200,   404.0,
1.3600,   433.0,
1.4000,   363.0,
1.4400,   375.0,
1.4800,   456.0,
1.5200,   413.0,
1.5600,   335.0,
1.6000,   293.0,
1.6400,   306.0,
1.6800,   298.0,
1.7200,   289.0,
1.7600,   278.0,
1.8000,   260.0,
1.8400,   247.0,
1.8800,   223.0,
1.9200,   189.0,
1.9600,   216.0,
2.0000,   210.0,
2.0400,   199.0,
2.0800,   212.0,
2.1200,   179.0,
2.1600,   181.0,
2.2000,   170.0,
2.2400,   181.0,
2.2800,   163.0,
2.3200,   168.0,
2.3600,   151.0,
2.4000,   144.0,
2.4400,   150.0,
2.4800,   156.0,
2.5200,   132.0,
2.5600,   125.0,
2.6000,   171.0,
2.6400,   136.0,
2.6800,   128.0,
2.7200,   123.0,
2.7600,   122.0,
2.8000,    92.0,
2.8400,   115.0,
2.8800,   106.0,
2.9200,    80.0,
2.9600,    98.0,
3.0000,    99.0,
3.0400,    98.0,
3.0800,   100.0,
3.1200,    88.0,
3.1600,    74.0,
3.2000,    79.0,
3.2400,    54.0,
3.2800,    82.0,
3.3200,    56.0,
3.3600,    82.0,
3.4000,    68.0,
3.4400,    69.0,
3.4800,    61.0,
3.5200,    70.0,
3.5600,    56.0,
3.6000,    65.0,
3.6400,    66.0,
3.6800,    71.0,
3.7200,    60.0,
3.7600,    39.0,
3.8000,    47.0,
3.8400,    60.0,
3.8800,    54.0,
3.9200,    39.0,
3.9600,    53.0,
4.0000,    51.0,
4.0400,    50.0,
4.0800,    33.0,
4.1200,    40.0,
4.1600,    40.0,
4.2000,    35.0,
4.2400,    25.0,
4.2800,    29.0,
4.3200,    36.0,
4.3600,    23.0,
4.4000,    30.0,
4.4400,    29.0,
4.4800,    28.0,
4.5200,    31.0,
4.5600,    23.0,
4.6000,    26.0,
4.6400,    17.0,
4.6800,    19.0,
4.7200,    18.0,
4.7600,    30.0,
4.8000,    18.0,
4.8400,    15.0,
4.8800,    18.0,
4.9200,    17.0,
4.9600,    17.0,
5.0000,    18.0,
5.0400,    15.0,
5.0800,    17.0,
5.1200,    18.0,
5.1600,    14.0,
5.2000,    12.0,
5.2400,    10.0,
5.2800,    11.0,
5.3200,    17.0,
5.3600,    15.0,
5.4000,    10.0,
5.4400,    15.0,
5.4800,    11.0,
5.5200,    16.0,
5.5600,    10.0,
5.6000,     5.0,
5.6400,     8.0,
5.6800,     8.0,
5.7200,     8.0,
5.7600,     9.0,
5.8000,     7.0,
5.8400,     6.0,
5.8800,     4.0,
5.9200,     6.0,
5.9600,    13.0,
6.0000,     5.0,
6.0400,     3.0,
6.0800,     7.0,
6.1200,    10.0,
6.1600,     7.0,
6.2000,     5.0,
6.2400,     0.0,
6.2800,     2.0,
6.3200,     1.0,
6.3600,     3.0,
6.4000,     3.0,
6.4400,     4.0,
6.4800,     0.0,
6.5200,     2.0,
6.5600,     0.0,
6.6000,     2.0,
6.6400,     1.0,
6.6800,     1.0,
6.7200,     1.0,
6.7600,     0.0,
6.8000,     0.0,
6.8400,     0.0,
6.8800,     0.0,
6.9200,     0.0,
6.9600,     1.0,
7.0000,     0.0,
7.0400,     0.0,
7.0800,     1.0,
7.1200,     0.0,
7.1600,     0.0,
7.2000,     0.0,
7.2400,     0.0,
7.2800,     0.0,
7.3200,     0.0,
7.3600,     0.0,
7.4000,     0.0,
7.4400,     0.0,
7.4800,     0.0,
7.5200,     0.0,
7.5600,     0.0,
7.6000,     0.0,
7.6400,     0.0,
7.6800,     0.0,
7.7200,     0.0,
7.7600,     0.0,
7.8000,     0.0,
7.8400,     0.0,
7.8800,     0.0,
7.9200,     0.0,
7.9600,     0.0,
8.0000,     0.0,
8.0400,     0.0,
8.0800,     0.0,
8.1200,     0.0,
8.1600,     0.0,
8.2000,     0.0,
8.2400,     0.0,
8.2800,     0.0,
8.3200,     0.0,
8.3600,     0.0,
8.4000,     0.0,
8.4400,     0.0,
8.4800,     0.0,
8.5200,     0.0,
8.5600,     0.0,
8.6000,     0.0,
8.6400,     0.0,
8.6800,     0.0,
8.7200,     0.0,
8.7600,     0.0,
8.8000,     0.0,
8.8400,     0.0,
8.8800,     0.0,
8.9200,     0.0,
8.9600,     0.0,
9.0000,     0.0,
9.0400,     0.0,
9.0800,     0.0,
9.1200,     0.0,
9.1600,     0.0,
9.2000,     0.0,
9.2400,     0.0,
9.2800,     0.0,
9.3200,     0.0,
9.3600,     0.0,
9.4000,     0.0,
9.4400,     0.0,
9.4800,     0.0,
9.5200,     0.0,
9.5600,     0.0,
9.6000,     0.0,
9.6400,     0.0,
9.6800,     0.0,
9.7200,     0.0,
9.7600,     0.0,
9.8000,     0.0,
9.8400,     0.0,
9.8800,     0.0,
9.9200,     0.0,
9.9600,     0.0,
10.0000,     0.0,
10.0400,     0.0,
10.0800,     0.0,
10.1200,     0.0,
10.1600,     0.0,
10.2000,     0.0,
10.2300,     0.0,
#ENDOFDATA   :