Folder: relozwall/data_processing/2024/manuscript3/data/EDX/20241122/hp_b_rod

Note: README.md
# relozwall
Code for data acquisition and control for low-Z renewable wall with integrated tritum recovery

File: Base(1).emsa
#FORMAT      : EMSA/MAS Spectral Data File
#VERSION     : 1.0
#TITLE       : Base(1)
#DATE        : 22-NOV-2024
#TIME        : 16:15: 8
#OWNER       :
#NPOINTS     : 1024
#NCOLUMNS    : 1
#XUNITS      : keV
#YUNITS      : Intensity
#DATATYPE    : XY
#XPERCHAN    : 0.01
#OFFSET      : 0.000000000
#CHOFFSET    : 0.000000
#SIGNALTYPE  : EDS
#XLABEL      : X-Ray Energy
#YLABEL      : X-Ray Intensity
#BEAMKV   -kV: 7.0
#EMISSION -uA: 0.0000
#PROBECUR -nA: 0.8000
#BEAMDIAM -nm: 0.0
#MAGCAM      : 600.0
#OPERMODE    : IMAG
#XTILTSTGE-dg: 0.000
#YTILTSTGE-dg: 0.000
#XPOSITION   : 0.000
#YPOSITION   : 0.000
#ZPOSITION   : 0.000
#ELEVANGLE-dg: 47.92
#AZIMANGLE-dg: 0.00
#SOLIDANGL-sR: 0.0053
#LIVETIME  -s: 6.965
#REALTIME  -s: 7.934
#THCWIND  -cm: 3.00E-05
#TAUWIND  -cm: 2.00E-06
#TDEADLYR -cm: 1.00E-06
#EDSDET      : SiUTW
#COMMENT     : The following parameters are defined by Thermo Fisher Scientific
##INSTRUMENT : NSS
##DETNAME    : UltraDry
##CONTAM     : 0.00E+00
##CONTAMTYPE : NONE
##WORKDIST   : 21.68
##STAGEROT   : 0.000
##SLIDEPOS   : 35.000
##CRYSTMATL  : Si-Drift
##CRYSTAREA  : 10.000
##CRYSTTHICK : 0.450
##WINTYPE    : NORVAR
##CONTMATL   : SDD_LELMT
##WINDCOAT   : ALUMINUM
##WINDTHICK  : 0.030
##DEADTIME   : 0.969
##TIMECNSTNT : 6400
##EDSBOARDREV: 2
##ZEROWIDTH  : 24.000
##DETECTS    : 85563
##CONVERTS   : 62209
##STORES     : 21633
##ESCPKSREM  : 1
##ZEROPKSREM : 0
##SUMPKSREM  : 1
##ZEROCUTOFF : 0.000
##DETSUBTYPE : 3
##EXPONENT   : 0.000
##LOWEVADJ   : 0.000
##BEAMX      : -1.000
##BEAMY      : -1.000
##CHARGE     : 0.00E+00
##QUANT_DATE : Fri Nov 22 16:15:16 2024
##QUANT_CHI  : 696.291
##FITTYPE    : 1
##MATRIXCORR : 1
##PEAKLAB    : 0.210000  B Ka  2
##PEAKLAB    : 0.301000  C Ka  2
##PEAKLAB    : 0.521000  O Ka  2
##QUANT_ATNUM: OK, 8
##QUANT_LNTP : OK, 1
##QUANT_SRC  : OK, 1
##QUANT_NTCNT: OK, 147
##QUANT_CTERR: OK, 54
##QUANT_STD  : OK,
##QUANT_CMPD : OK, O
##QUANT_KRT  : OK, 0.08266
##QUANT_KERR : OK, 0.03062
##QUANT_FITC : OK, 2.08228e-03
##QUANT_WTCON: OK, 0.15302
##QUANT_ATCON: OK, 0.11943
##QUANT_COCON: OK, 0.15302
##QUANT_Z    : OK, 1.05679
##QUANT_A    : OK, 1.97463
##QUANT_F    : OK, 1.00000
##QUANT_KFACT: OK, 0.00000
##QUANT_CATS : OK, 0.00000
##QUANT_FITC1: OK, 0.00000e+00
##QUANT_FITC2: OK, -3.83644e-03
##QUANT_FIT_G: OK, 2.16990e-03
##QUANT_PMTR0: OK, 9.70907e-01
##QUANT_PMTR1: OK, 3.08200e+00
##QUANT_PMTR2: OK, 0.00000e+00
##QUANT_PMTR3: OK, 1.28779e+00
##QUANT_ATNUM: CK, 6
##QUANT_LNTP : CK, 1
##QUANT_SRC  : CK, 1
##QUANT_NTCNT: CK, 3673
##QUANT_CTERR: CK, 70
##QUANT_STD  : CK,
##QUANT_CMPD : CK, C
##QUANT_KRT  : CK, 0.91734
##QUANT_KERR : CK, 0.01739
##QUANT_FITC : CK, 5.36658e-02
##QUANT_WTCON: CK, 0.84698
##QUANT_ATCON: CK, 0.88057
##QUANT_COCON: CK, 0.84698
##QUANT_Z    : CK, 0.98990
##QUANT_A    : CK, 1.05152
##QUANT_F    : CK, 0.99991
##QUANT_KFACT: CK, 0.00000
##QUANT_CATS : CK, 0.00000
##QUANT_FITC1: CK, 1.03343e-02
##QUANT_FITC2: CK, 5.56177e-03
##QUANT_FIT_G: CK, 3.94662e-02
##QUANT_PMTR0: CK, 9.70907e-01
##QUANT_PMTR1: CK, 3.08200e+00
##QUANT_PMTR2: CK, 0.00000e+00
##QUANT_PMTR3: CK, 1.28779e+00
##QUANT_ATNUM: BK, 5
##QUANT_LNTP : BK, 1
##QUANT_SRC  : BK, 1
##QUANT_NTCNT: BK, 0
##QUANT_CTERR: BK, 36
##QUANT_STD  : BK,
##QUANT_CMPD : BK, B
##QUANT_KRT  : BK, 0.00000
##QUANT_KERR : BK, 0.00000
##QUANT_FITC : BK, 0.00000e+00
##QUANT_WTCON: BK, 0.00000
##QUANT_ATCON: BK, 0.00000
##QUANT_COCON: BK, 0.00000
##QUANT_Z    : BK, 1.02619
##QUANT_A    : BK, 1.31419
##QUANT_F    : BK, 0.99847
##QUANT_KFACT: BK, 0.00000
##QUANT_CATS : BK, 0.00000
##QUANT_FITC1: BK, 0.00000e+00
##QUANT_FITC2: BK, 0.00000e+00
##QUANT_FIT_G: BK, 2.35131e-02
##QUANT_PMTR0: BK, 9.70907e-01
##QUANT_PMTR1: BK, 3.08200e+00
##QUANT_PMTR2: BK, 0.00000e+00
##QUANT_PMTR3: BK, 1.28779e+00
#SPECTRUM    :
0.0000,     0.0,
0.0400,     0.0,
0.0800,     0.0,
0.1200,     0.0,
0.1600,     0.0,
0.2000,  3653.0,
0.2400,   155.0,
0.2800,   514.0,
0.3200,    34.0,
0.3600,    47.0,
0.4000,    47.0,
0.4400,    45.0,
0.4800,    57.0,
0.5200,   157.0,
0.5600,    56.0,
0.6000,    59.0,
0.6400,    55.0,
0.6800,    56.0,
0.7200,    67.0,
0.7600,    55.0,
0.8000,    73.0,
0.8400,    59.0,
0.8800,    78.0,
0.9200,    85.0,
0.9600,    97.0,
1.0000,    76.0,
1.0400,    91.0,
1.0800,    83.0,
1.1200,    68.0,
1.1600,    80.0,
1.2000,    67.0,
1.2400,    78.0,
1.2800,    60.0,
1.3200,    74.0,
1.3600,    69.0,
1.4000,    61.0,
1.4400,    50.0,
1.4800,    78.0,
1.5200,    58.0,
1.5600,    49.0,
1.6000,    32.0,
1.6400,    42.0,
1.6800,    47.0,
1.7200,    51.0,
1.7600,    49.0,
1.8000,    35.0,
1.8400,    38.0,
1.8800,    25.0,
1.9200,    25.0,
1.9600,    35.0,
2.0000,    36.0,
2.0400,    34.0,
2.0800,    30.0,
2.1200,    28.0,
2.1600,    36.0,
2.2000,    26.0,
2.2400,    20.0,
2.2800,    18.0,
2.3200,    23.0,
2.3600,    29.0,
2.4000,    19.0,
2.4400,    24.0,
2.4800,    19.0,
2.5200,    32.0,
2.5600,    22.0,
2.6000,    13.0,
2.6400,    14.0,
2.6800,    18.0,
2.7200,    12.0,
2.7600,    13.0,
2.8000,     6.0,
2.8400,    21.0,
2.8800,     9.0,
2.9200,    15.0,
2.9600,    14.0,
3.0000,     9.0,
3.0400,    12.0,
3.0800,    16.0,
3.1200,    13.0,
3.1600,    13.0,
3.2000,    20.0,
3.2400,     7.0,
3.2800,    12.0,
3.3200,    12.0,
3.3600,    11.0,
3.4000,     8.0,
3.4400,     6.0,
3.4800,    10.0,
3.5200,     8.0,
3.5600,     9.0,
3.6000,     7.0,
3.6400,    10.0,
3.6800,    12.0,
3.7200,     5.0,
3.7600,     9.0,
3.8000,    10.0,
3.8400,     7.0,
3.8800,     3.0,
3.9200,    12.0,
3.9600,     2.0,
4.0000,     5.0,
4.0400,     6.0,
4.0800,     7.0,
4.1200,     4.0,
4.1600,     7.0,
4.2000,     4.0,
4.2400,     6.0,
4.2800,     3.0,
4.3200,     4.0,
4.3600,     3.0,
4.4000,     7.0,
4.4400,     7.0,
4.4800,     5.0,
4.5200,     3.0,
4.5600,     1.0,
4.6000,     8.0,
4.6400,     4.0,
4.6800,     3.0,
4.7200,     1.0,
4.7600,     5.0,
4.8000,     2.0,
4.8400,     4.0,
4.8800,     2.0,
4.9200,     0.0,
4.9600,     0.0,
5.0000,     2.0,
5.0400,     1.0,
5.0800,     1.0,
5.1200,     3.0,
5.1600,     2.0,
5.2000,     6.0,
5.2400,     1.0,
5.2800,     0.0,
5.3200,     4.0,
5.3600,     1.0,
5.4000,     1.0,
5.4400,     2.0,
5.4800,     2.0,
5.5200,     1.0,
5.5600,     0.0,
5.6000,     0.0,
5.6400,     0.0,
5.6800,     2.0,
5.7200,     0.0,
5.7600,     2.0,
5.8000,     2.0,
5.8400,     1.0,
5.8800,     1.0,
5.9200,     0.0,
5.9600,     0.0,
6.0000,     0.0,
6.0400,     1.0,
6.0800,     0.0,
6.1200,     0.0,
6.1600,     0.0,
6.2000,     0.0,
6.2400,     1.0,
6.2800,     1.0,
6.3200,     0.0,
6.3600,     0.0,
6.4000,     0.0,
6.4400,     1.0,
6.4800,     1.0,
6.5200,     2.0,
6.5600,     1.0,
6.6000,     0.0,
6.6400,     0.0,
6.6800,     0.0,
6.7200,     0.0,
6.7600,     1.0,
6.8000,     0.0,
6.8400,     0.0,
6.8800,     0.0,
6.9200,     0.0,
6.9600,     0.0,
7.0000,     0.0,
7.0400,     0.0,
7.0800,     0.0,
7.1200,     0.0,
7.1600,     0.0,
7.2000,     0.0,
7.2400,     0.0,
7.2800,     0.0,
7.3200,     0.0,
7.3600,     0.0,
7.4000,     0.0,
7.4400,     0.0,
7.4800,     0.0,
7.5200,     0.0,
7.5600,     0.0,
7.6000,     0.0,
7.6400,     0.0,
7.6800,     0.0,
7.7200,     0.0,
7.7600,     0.0,
7.8000,     0.0,
7.8400,     0.0,
7.8800,     0.0,
7.9200,     0.0,
7.9600,     0.0,
8.0000,     0.0,
8.0400,     0.0,
8.0800,     0.0,
8.1200,     0.0,
8.1600,     0.0,
8.2000,     0.0,
8.2400,     0.0,
8.2800,     0.0,
8.3200,     0.0,
8.3600,     0.0,
8.4000,     0.0,
8.4400,     0.0,
8.4800,     0.0,
8.5200,     0.0,
8.5600,     0.0,
8.6000,     0.0,
8.6400,     0.0,
8.6800,     0.0,
8.7200,     0.0,
8.7600,     0.0,
8.8000,     0.0,
8.8400,     0.0,
8.8800,     0.0,
8.9200,     0.0,
8.9600,     0.0,
9.0000,     0.0,
9.0400,     0.0,
9.0800,     0.0,
9.1200,     0.0,
9.1600,     0.0,
9.2000,     0.0,
9.2400,     0.0,
9.2800,     0.0,
9.3200,     0.0,
9.3600,     0.0,
9.4000,     0.0,
9.4400,     0.0,
9.4800,     0.0,
9.5200,     0.0,
9.5600,     0.0,
9.6000,     0.0,
9.6400,     0.0,
9.6800,     0.0,
9.7200,     0.0,
9.7600,     0.0,
9.8000,     0.0,
9.8400,     0.0,
9.8800,     0.0,
9.9200,     0.0,
9.9600,     0.0,
10.0000,     0.0,
10.0400,     0.0,
10.0800,     0.0,
10.1200,     0.0,
10.1600,     0.0,
10.2000,     0.0,
10.2300,     0.0,
#ENDOFDATA   :

File: Base(2).emsa
#FORMAT      : EMSA/MAS Spectral Data File
#VERSION     : 1.0
#TITLE       : Base(2)
#DATE        : 22-NOV-2024
#TIME        : 16:15:28
#OWNER       :
#NPOINTS     : 1024
#NCOLUMNS    : 1
#XUNITS      : keV
#YUNITS      : Intensity
#DATATYPE    : XY
#XPERCHAN    : 0.01
#OFFSET      : 0.000000000
#CHOFFSET    : 0.000000
#SIGNALTYPE  : EDS
#XLABEL      : X-Ray Energy
#YLABEL      : X-Ray Intensity
#BEAMKV   -kV: 7.0
#EMISSION -uA: 0.0000
#PROBECUR -nA: 0.8000
#BEAMDIAM -nm: 0.0
#MAGCAM      : 600.0
#OPERMODE    : IMAG
#XTILTSTGE-dg: 0.000
#YTILTSTGE-dg: 0.000
#XPOSITION   : 0.000
#YPOSITION   : 0.000
#ZPOSITION   : 0.000
#ELEVANGLE-dg: 47.92
#AZIMANGLE-dg: 0.00
#SOLIDANGL-sR: 0.0053
#LIVETIME  -s: 30.000
#REALTIME  -s: 34.197
#THCWIND  -cm: 3.00E-05
#TAUWIND  -cm: 2.00E-06
#TDEADLYR -cm: 1.00E-06
#EDSDET      : SiUTW
#COMMENT     : The following parameters are defined by Thermo Fisher Scientific
##INSTRUMENT : NSS
##DETNAME    : UltraDry
##CONTAM     : 0.00E+00
##CONTAMTYPE : NONE
##WORKDIST   : 21.68
##STAGEROT   : 0.000
##SLIDEPOS   : 35.000
##CRYSTMATL  : Si-Drift
##CRYSTAREA  : 10.000
##CRYSTTHICK : 0.450
##WINTYPE    : NORVAR
##CONTMATL   : SDD_LELMT
##WINDCOAT   : ALUMINUM
##WINDTHICK  : 0.030
##DEADTIME   : 4.197
##TIMECNSTNT : 6400
##EDSBOARDREV: 2
##ZEROWIDTH  : 24.000
##DETECTS    : 371797
##CONVERTS   : 268329
##STORES     : 249422
##ESCPKSREM  : 1
##ZEROPKSREM : 0
##SUMPKSREM  : 1
##ZEROCUTOFF : 0.000
##DETSUBTYPE : 3
##EXPONENT   : 0.000
##LOWEVADJ   : 0.000
##BEAMX      : -1.000
##BEAMY      : -1.000
##CHARGE     : 0.00E+00
##QUANT_DATE : Fri Nov 22 16:16:02 2024
##QUANT_CHI  : 579.113
##FITTYPE    : 1
##MATRIXCORR : 1
##PEAKLAB    : 0.182000  B Ka  2
##PEAKLAB    : 0.300000  C Ka  2
##PEAKLAB    : 0.522000  O Ka  2
##QUANT_ATNUM: OK, 8
##QUANT_LNTP : OK, 1
##QUANT_SRC  : OK, 1
##QUANT_NTCNT: OK, 1642
##QUANT_CTERR: OK, 112
##QUANT_STD  : OK,
##QUANT_CMPD : OK, O
##QUANT_KRT  : OK, 0.01641
##QUANT_KERR : OK, 0.00112
##QUANT_FITC : OK, 2.32493e-02
##QUANT_WTCON: OK, 0.02298
##QUANT_ATCON: OK, 0.01599
##QUANT_COCON: OK, 0.02298
##QUANT_Z    : OK, 1.03895
##QUANT_A    : OK, 1.77216
##QUANT_F    : OK, 1.00000
##QUANT_KFACT: OK, 0.00000
##QUANT_CATS : OK, 0.00000
##QUANT_FITC1: OK, -3.57123e-03
##QUANT_FITC2: OK, -1.95103e-03
##QUANT_FIT_G: OK, 0.00000e+00
##QUANT_PMTR0: OK, 1.26836e+00
##QUANT_PMTR1: OK, -4.92321e+00
##QUANT_PMTR2: OK, 0.00000e+00
##QUANT_PMTR3: OK, 1.55535e+00
##QUANT_ATNUM: CK, 6
##QUANT_LNTP : CK, 1
##QUANT_SRC  : CK, 1
##QUANT_NTCNT: CK, 13220
##QUANT_CTERR: CK, 205
##QUANT_STD  : CK,
##QUANT_CMPD : CK, C
##QUANT_KRT  : CK, 0.05870
##QUANT_KERR : CK, 0.00091
##QUANT_FITC : CK, 1.93137e-01
##QUANT_WTCON: CK, 0.21475
##QUANT_ATCON: CK, 0.19904
##QUANT_COCON: CK, 0.21475
##QUANT_Z    : CK, 0.97408
##QUANT_A    : CK, 4.93892
##QUANT_F    : CK, 0.99999
##QUANT_KFACT: CK, 0.00000
##QUANT_CATS : CK, 0.00000
##QUANT_FITC1: CK, 0.00000e+00
##QUANT_FITC2: CK, 0.00000e+00
##QUANT_FIT_G: CK, 2.49577e-01
##QUANT_PMTR0: CK, 1.26836e+00
##QUANT_PMTR1: CK, -4.92321e+00
##QUANT_PMTR2: CK, 0.00000e+00
##QUANT_PMTR3: CK, 1.55535e+00
##QUANT_ATNUM: BK, 5
##QUANT_LNTP : BK, 1
##QUANT_SRC  : BK, 1
##QUANT_NTCNT: BK, 149692
##QUANT_CTERR: BK, 1320
##QUANT_STD  : BK,
##QUANT_CMPD : BK, B
##QUANT_KRT  : BK, 0.92489
##QUANT_KERR : BK, 0.00816
##QUANT_FITC : BK, 2.87140e+00
##QUANT_WTCON: BK, 0.76227
##QUANT_ATCON: BK, 0.78498
##QUANT_COCON: BK, 0.76227
##QUANT_Z    : BK, 1.00570
##QUANT_A    : BK, 1.07777
##QUANT_F    : BK, 0.99992
##QUANT_KFACT: BK, 0.00000
##QUANT_CATS : BK, 0.00000
##QUANT_FITC1: BK, 1.33344e-02
##QUANT_FITC2: BK, -2.35423e-01
##QUANT_FIT_G: BK, 4.54345e+00
##QUANT_PMTR0: BK, 1.26836e+00
##QUANT_PMTR1: BK, -4.92321e+00
##QUANT_PMTR2: BK, 0.00000e+00
##QUANT_PMTR3: BK, 1.55535e+00
#SPECTRUM    :
0.0000,     0.0,
0.0400,     0.0,
0.0800,     0.0,
0.1200,   679.0,
0.1600, 22923.0,
0.2000, 16053.0,
0.2400,   694.0,
0.2800,  2191.0,
0.3200,   160.0,
0.3600,   221.0,
0.4000,   185.0,
0.4400,   201.0,
0.4800,   271.0,
0.5200,   633.0,
0.5600,   247.0,
0.6000,   228.0,
0.6400,   280.0,
0.6800,   252.0,
0.7200,   267.0,
0.7600,   290.0,
0.8000,   328.0,
0.8400,   319.0,
0.8800,   341.0,
0.9200,   321.0,
0.9600,   324.0,
1.0000,   317.0,
1.0400,   283.0,
1.0800,   314.0,
1.1200,   280.0,
1.1600,   318.0,
1.2000,   299.0,
1.2400,   294.0,
1.2800,   296.0,
1.3200,   258.0,
1.3600,   281.0,
1.4000,   240.0,
1.4400,   245.0,
1.4800,   292.0,
1.5200,   269.0,
1.5600,   220.0,
1.6000,   179.0,
1.6400,   211.0,
1.6800,   195.0,
1.7200,   177.0,
1.7600,   202.0,
1.8000,   176.0,
1.8400,   152.0,
1.8800,   171.0,
1.9200,   147.0,
1.9600,   133.0,
2.0000,   127.0,
2.0400,   127.0,
2.0800,   139.0,
2.1200,   117.0,
2.1600,   116.0,
2.2000,   106.0,
2.2400,    96.0,
2.2800,   107.0,
2.3200,   100.0,
2.3600,   101.0,
2.4000,    90.0,
2.4400,    80.0,
2.4800,    82.0,
2.5200,   108.0,
2.5600,    94.0,
2.6000,    79.0,
2.6400,    93.0,
2.6800,    66.0,
2.7200,    82.0,
2.7600,    78.0,
2.8000,    61.0,
2.8400,    65.0,
2.8800,    52.0,
2.9200,    70.0,
2.9600,    57.0,
3.0000,    61.0,
3.0400,    45.0,
3.0800,    57.0,
3.1200,    52.0,
3.1600,    47.0,
3.2000,    42.0,
3.2400,    44.0,
3.2800,    44.0,
3.3200,    47.0,
3.3600,    46.0,
3.4000,    41.0,
3.4400,    43.0,
3.4800,    42.0,
3.5200,    31.0,
3.5600,    51.0,
3.6000,    41.0,
3.6400,    52.0,
3.6800,    35.0,
3.7200,    38.0,
3.7600,    34.0,
3.8000,    32.0,
3.8400,    27.0,
3.8800,    33.0,
3.9200,    19.0,
3.9600,    23.0,
4.0000,    19.0,
4.0400,    32.0,
4.0800,    25.0,
4.1200,    28.0,
4.1600,    24.0,
4.2000,    16.0,
4.2400,    22.0,
4.2800,    18.0,
4.3200,    24.0,
4.3600,    16.0,
4.4000,    17.0,
4.4400,    15.0,
4.4800,    13.0,
4.5200,    18.0,
4.5600,    14.0,
4.6000,    20.0,
4.6400,    13.0,
4.6800,    14.0,
4.7200,    16.0,
4.7600,    26.0,
4.8000,    16.0,
4.8400,    21.0,
4.8800,     7.0,
4.9200,    11.0,
4.9600,     8.0,
5.0000,     9.0,
5.0400,    16.0,
5.0800,    14.0,
5.1200,    11.0,
5.1600,     5.0,
5.2000,    13.0,
5.2400,     7.0,
5.2800,     8.0,
5.3200,     3.0,
5.3600,     5.0,
5.4000,     9.0,
5.4400,     7.0,
5.4800,     3.0,
5.5200,     6.0,
5.5600,     8.0,
5.6000,     7.0,
5.6400,     5.0,
5.6800,     5.0,
5.7200,     3.0,
5.7600,     7.0,
5.8000,     6.0,
5.8400,     6.0,
5.8800,     3.0,
5.9200,     3.0,
5.9600,     6.0,
6.0000,     2.0,
6.0400,     4.0,
6.0800,     3.0,
6.1200,     2.0,
6.1600,     4.0,
6.2000,     2.0,
6.2400,     2.0,
6.2800,     3.0,
6.3200,     1.0,
6.3600,     2.0,
6.4000,     2.0,
6.4400,     1.0,
6.4800,     1.0,
6.5200,     2.0,
6.5600,     0.0,
6.6000,     4.0,
6.6400,     1.0,
6.6800,     0.0,
6.7200,     0.0,
6.7600,     0.0,
6.8000,     0.0,
6.8400,     1.0,
6.8800,     0.0,
6.9200,     1.0,
6.9600,     0.0,
7.0000,     0.0,
7.0400,     0.0,
7.0800,     0.0,
7.1200,     0.0,
7.1600,     0.0,
7.2000,     0.0,
7.2400,     0.0,
7.2800,     0.0,
7.3200,     0.0,
7.3600,     0.0,
7.4000,     0.0,
7.4400,     0.0,
7.4800,     0.0,
7.5200,     0.0,
7.5600,     0.0,
7.6000,     0.0,
7.6400,     0.0,
7.6800,     0.0,
7.7200,     0.0,
7.7600,     0.0,
7.8000,     0.0,
7.8400,     0.0,
7.8800,     0.0,
7.9200,     0.0,
7.9600,     0.0,
8.0000,     0.0,
8.0400,     0.0,
8.0800,     0.0,
8.1200,     0.0,
8.1600,     0.0,
8.2000,     0.0,
8.2400,     0.0,
8.2800,     0.0,
8.3200,     0.0,
8.3600,     0.0,
8.4000,     0.0,
8.4400,     0.0,
8.4800,     0.0,
8.5200,     0.0,
8.5600,     0.0,
8.6000,     0.0,
8.6400,     0.0,
8.6800,     0.0,
8.7200,     0.0,
8.7600,     0.0,
8.8000,     0.0,
8.8400,     0.0,
8.8800,     0.0,
8.9200,     0.0,
8.9600,     0.0,
9.0000,     0.0,
9.0400,     0.0,
9.0800,     0.0,
9.1200,     0.0,
9.1600,     0.0,
9.2000,     0.0,
9.2400,     0.0,
9.2800,     0.0,
9.3200,     0.0,
9.3600,     0.0,
9.4000,     0.0,
9.4400,     0.0,
9.4800,     0.0,
9.5200,     0.0,
9.5600,     0.0,
9.6000,     0.0,
9.6400,     0.0,
9.6800,     0.0,
9.7200,     0.0,
9.7600,     0.0,
9.8000,     0.0,
9.8400,     0.0,
9.8800,     0.0,
9.9200,     0.0,
9.9600,     0.0,
10.0000,     0.0,
10.0400,     0.0,
10.0800,     0.0,
10.1200,     0.0,
10.1600,     0.0,
10.2000,     0.0,
10.2300,     0.0,
#ENDOFDATA   :