Folder: relozwall/data_processing/materials/absorption_coefficient

Note: README.md
# relozwall
Code for data acquisition and control for low-Z renewable wall with integrated tritum recovery

File: Smausz2017_alpha_ellipsometry.csv
#DataThief G:\Shared drives\ARPA-E Project\Literature\Film Thickness\Smausz2017.png Thursday 30-May-2024 1:51:57 PM
# Smausz, T., Kondász, B., Gera, T. et al. Determination of UV–visible–NIR absorption coefficient of graphite bulk using direct and indirect methods. Appl. Phys. A 123, 633 (2017). https://doi.org/10.1007/s00339-017-1249-y
Wavelength (nm),alpha (1/um)
249.0641, 18.329
249.0641, 18.213
250.1985, 18.097
251.333, 17.9809
252.4674, 17.8649
253.6018, 17.7489
253.6018, 17.6329
254.7362, 17.5169
255.8707, 17.4009
257.0051, 17.2848
258.1395, 17.1688
258.1395, 17.0528
259.274, 16.9367
260.4083, 16.8208
260.4083, 16.7048
261.5428, 16.5887
261.5428, 16.4727
262.6773, 16.3567
262.6773, 16.2407
264.9461, 16.1247
264.9461, 16.0087
267.215, 15.8925
266.0805, 15.7766
266.0805, 15.6606
268.3494, 15.5446
268.3494, 15.4285
269.4838, 15.3126
269.4838, 15.1965
270.6183, 15.0805
271.7527, 14.9645
271.7527, 14.8485
272.8871, 14.7325
272.8871, 14.6165
274.0216, 14.5004
275.156, 14.3844
275.156, 14.2684
276.2904, 14.1524
277.4248, 14.0364
277.4248, 13.9203
278.5593, 13.8043
279.6937, 13.6883
279.6937, 13.5723
280.8281, 13.4563
281.9626, 13.3403
281.9626, 13.2243
283.097, 13.1082
284.2314, 12.9922
284.2314, 12.8761
285.3659, 12.7602
286.5003, 12.6442
287.6347, 12.5282
287.6347, 12.4121
288.7691, 12.2961
289.9036, 12.1801
291.038, 12.0641
292.1724, 11.9481
293.3069, 11.8319
294.4413, 11.716
294.4413, 11.6
295.5756, 11.484
296.7102, 11.3679
297.8446, 11.252
298.979, 11.1359
300.1134, 11.0199
301.2479, 10.9039
303.5167, 10.7879
304.6512, 10.6718
305.7856, 10.5558
306.92, 10.4398
308.0545, 10.3237
310.3233, 10.2078
311.4577, 10.0917
313.7266, 9.9757
314.861, 9.8597
317.1299, 9.7436
319.3988, 9.6276
320.5332, 9.5116
322.802, 9.3956
325.0709, 9.2795
327.3397, 9.1635
330.7431, 9.0475
333.0119, 8.9701
335.2808, 8.8927
336.4152, 8.7767
339.8185, 8.738
343.2218, 8.6219
346.6251, 8.5446
348.8939, 8.4285
351.1628, 8.3512
354.5661, 8.2738
356.8349, 8.1965
360.2382, 8.1578
363.6415, 8.0417
365.9104, 7.9644
369.3136, 7.887
371.5825, 7.8483
374.9858, 7.7709
378.3891, 7.6936
381.7924, 7.6162
384.0613, 7.5775
386.3301, 7.5001
389.7334, 7.4614
393.1367, 7.3841
396.54, 7.3454
399.9433, 7.268
403.3466, 7.1905
406.7499, 7.1132
410.1531, 7.0745
413.5564, 7.0358
416.9597, 6.9585
420.363, 6.8811
423.7663, 6.8424
427.1696, 6.765
430.5729, 6.7263
433.9762, 6.6489
437.3795, 6.6101
440.7828, 6.5715
444.186, 6.4942
447.5893, 6.4555
450.9926, 6.4168
454.3959, 6.378
457.7992, 6.3007
461.2025, 6.3006
464.6058, 6.2233
468.0091, 6.1846
471.4123, 6.1459
474.8157, 6.1072
478.2189, 6.0685
481.6221, 6.0298
485.0255, 5.991
488.4288, 5.9524
491.8321, 5.9137
495.2354, 5.8749
498.6387, 5.8362
502.042, 5.8362
505.4453, 5.7974
508.8486, 5.7588
512.2518, 5.7201
515.6551, 5.6814
519.0584, 5.6814
522.4617, 5.6427
525.865, 5.604
529.2683, 5.5653
532.6716, 5.5652
536.0749, 5.5265
539.4782, 5.5265
542.8815, 5.4878
546.2847, 5.4491
549.688, 5.4491
553.0913, 5.4104
556.4946, 5.3717
559.8979, 5.3716
563.3012, 5.3329
566.7045, 5.3329
570.1078, 5.2942
573.511, 5.2941
576.9144, 5.2554
580.3176, 5.2554
583.7208, 5.2167
587.1242, 5.2167
590.5274, 5.178
593.9308, 5.1779
597.3341, 5.1392
600.7374, 5.1392
604.1407, 5.1005
607.544, 5.1005
610.9472, 5.0618
614.3505, 5.0617
617.7538, 5.023
621.1571, 5.023
624.5604, 5.023
627.9637, 4.9843
631.367, 4.9842
634.7703, 4.9455
638.1736, 4.9455
641.5769, 4.9455
644.9801, 4.9068
648.3834, 4.9066
651.7867, 4.8679
655.19, 4.8679
658.5933, 4.8679
661.9966, 4.8293
665.3999, 4.8292
668.8032, 4.8292
672.2065, 4.7905
675.6098, 4.7905
679.013, 4.7904
682.4163, 4.7517
685.8195, 4.7517
689.2229, 4.7517
692.6261, 4.7128
696.0295, 4.7128
699.4328, 4.7128
702.8361, 4.6742
706.2394, 4.6741
709.6427, 4.6741
713.0459, 4.6354
716.4492, 4.6354
719.8525, 4.6353
723.2558, 4.5966
726.6591, 4.5966
730.0624, 4.5966
733.4657, 4.5965
736.869, 4.5577
740.2723, 4.5577
743.6756, 4.5191
747.0788, 4.5191
750.4821, 4.519
753.8854, 4.519
757.2887, 4.4803
760.692, 4.4803
764.0953, 4.4802
767.4986, 4.4802
770.9019, 4.4415
774.3052, 4.4415
777.7085, 4.4414
781.1117, 4.4027
784.515, 4.4027
787.9183, 4.4027
791.3216, 4.4026
794.7248, 4.3639
798.1282, 4.3639
801.5314, 4.3639
804.9348, 4.3638
808.3381, 4.3638
811.7412, 4.3251
815.1446, 4.3251
818.5479, 4.325
821.9512, 4.2863
825.3545, 4.2863
828.7578, 4.2863
832.1611, 4.2862
835.5644, 4.2862
838.9677, 4.2475
842.371, 4.2475
845.7742, 4.2474
849.1775, 4.2474
852.5808, 4.2086
855.9841, 4.2086
859.3874, 4.2086
862.7907, 4.2086
866.194, 4.1699
869.5973, 4.1699
873.0006, 4.1698
876.4039, 4.1698
879.8071, 4.1698
883.2104, 4.1697
886.6137, 4.131
890.017, 4.131
893.4203, 4.131
896.8235, 4.0923
900.2269, 4.0922
903.6301, 4.0922
907.0335, 4.0922
910.4368, 4.0921
913.8399, 4.0921
917.2433, 4.0534
920.6465, 4.0534
924.0499, 4.0533
927.4532, 4.0533
930.8565, 4.0533
934.2598, 4.0146
937.6631, 4.0145
941.0664, 4.0145
944.4697, 4.0145
947.8729, 4.0144
951.2762, 3.9757
954.6795, 3.9757
958.0828, 3.9757
961.4861, 3.9756
964.8894, 3.9756
968.2927, 3.9756
971.696, 3.9369
975.0993, 3.9367
978.5026, 3.9367
981.9058, 3.9367
985.3091, 3.8981
986.4436, 3.898